Folder: JVanalyzer/Analysis_Example/Sample_Data/devices/B4 - cTiO2_spiro[4]

Note: README.md
# JVanalyzer

A simple GUI and code to enable quick plotting and reporting of solar cell's photovoltaic performances. 
Implemented to work on export files from Litos Lite (Fluxim).

The naming convention '<device label> - <variable+value>' should be used when saving device data.  
<device label>: unique identifier for a device in the batch
<variable+value>: the name of the variable under control and of its value.
		  Used in the report of device performance statistics.
		  Devices with same <variable+value> field will be averaged together.

File: B4 - cTiO2_spiro[4]_0_0.csv
#ID:	1
#type:	Set light intensity
#start_time:	7/18/2020 7:58:09 PM
#
# Parameters
#Sample area:	0.128000 cm²
##Sample IR temperature:	[22.41,22.57
] °C
##Environment temperature:	[22.55,22.54
] °C
##Humidity:	[55.98,55.92
] %
##Light intensity:	[0.000000,100
] %
##Stage temperature:	[NaN,NaN
] °C
#
#wavelength (nm),intensity (1)
330,0.000001
335.938,0.000001
341.875,0.000000
347.812,0.000000
353.75,0.040980
359.688,0.020989
365.625,0.023724
371.562,0.034261
377.5,0.037520
383.438,0.021528
389.375,0.012435
395.312,0.012051
401.25,0.009461
407.188,0.014385
413.125,0.034464
419.062,0.061233
425,0.118213
430.938,0.161006
436.875,0.228871
442.812,0.273553
448.75,0.211164
454.688,0.142659
460.625,0.116540
466.562,0.119686
472.5,0.169777
478.438,0.358590
484.375,0.595565
490.312,0.944963
496.25,1.431523
502.188,1.749368
508.125,1.966694
514.062,2.087942
520,2.145432
525.938,2.178300
531.875,2.197685
537.812,2.195401
543.75,2.177019
549.688,2.132201
555.625,2.056033
561.562,1.975892
567.5,1.902652
573.438,1.839371
579.375,1.799358
585.312,1.767523
591.25,1.760825
597.188,1.772004
603.125,1.805936
609.062,1.827586
615,1.849874
620.938,1.866728
626.875,1.881259
632.812,1.861224
638.75,1.838360
644.688,1.783467
650.625,1.702095
656.562,1.599872
662.5,1.511625
668.438,1.459392
674.375,1.490646
680.312,1.600689
686.25,1.684953
692.188,1.596004
698.125,1.449654
704.062,1.247435
710,0.904432
715.938,0.677585
721.875,0.429119
727.812,0.342737
733.75,0.363542
739.688,0.421609
745.625,0.571963
751.562,0.806734
757.5,1.090180
763.438,1.265385
769.375,1.274305
775.312,1.193461
781.25,1.089741
787.188,0.886770
793.125,0.699387
799.062,0.386532
805,0.212790
810.938,0.125827
816.875,0.094226
822.812,0.093600
828.75,0.111422
834.688,0.141037
840.625,0.181728
846.562,0.241473
852.5,0.333732
858.438,0.450588
864.375,0.572649
870.312,0.704522
876.25,0.870116
882.188,1.038007
888.125,1.149399
894.062,1.207173
900,1.136868
905.938,0.996844
911.875,0.829724
917.812,0.680949
923.75,0.567437
929.688,0.486583
935.625,0.426641
941.562,0.416939
947.5,0.444866
953.438,0.511322
959.375,0.588537
965.312,0.660234
971.25,0.715166
977.188,0.750883
983.125,0.777009
989.062,0.796884
995,0.824317
1000.94,0.867115
1006.88,0.936465
1012.81,1.031636
1018.75,1.150523
1024.69,1.261850
1030.62,1.318018
1036.56,1.305996
1042.5,1.239760
1048.44,1.179645
1054.38,1.137755
1060.31,1.042286
1066.25,0.939780
1072.19,0.827511
1078.12,0.675558
1084.06,0.516271
1090,0.356094
1095.94,0.240547
1101.88,0.171115
1107.81,0.131726
1113.75,0.088149
1119.69,0.062532
1125.62,0.030134
1131.56,0.004601
1137.5,0.000010
1143.44,0.000012
1149.38,0.000016
1155.31,0.000016
1161.25,0.000010
1167.19,0.000008
1173.12,0.000011
1179.06,0.000019
1185,0.000024
1190.94,0.000019
1196.88,0.000028
1202.81,0.000029
1208.75,0.000038
1214.69,0.000030
1220.62,0.000030
1226.56,0.000028
1232.5,0.000028
1238.44,0.000032
1244.38,0.000021
1250.31,0.000011
1256.25,0.000011
1262.19,0.000005
1268.12,0.000006
1274.06,0.000003
1280,-0.000001
1285.94,0.000003
1291.88,-0.000001
1297.81,0.000001
1303.75,0.000002
1309.69,-0.000004
1315.62,-0.000000